trials.thisRepN,trials.thisTrialN,trials.thisN,trials.thisIndex,thisRow.t,notes,choice.started,balloon.started,bank.started,pump.started,earning.started,earningpreviousBalloon.started,debugText.started,choice.stopped,nPumps_wouldPop,nPumps_done,popped,earnings_thisBalloon,bankedPumps,earnings,xSize,ySize,key_resp.keys,key_resp.rt,key_resp.duration,boomSlide.started,text.started,soundEffect.started,text.stopped,boomSlide.stopped,soundEffect.stopped,ending.started,feedbackFinal.started,key_resp_2.started,ending.stopped,key_resp_2.keys,participant,session,date,expName,psychopyVersion,frameRate,expStart,
0,0,0,0,0.04219079999893438,,0.004215100001601968,0.04219079999893438,0.04219079999893438,0.04219079999893438,0.04219079999893438,0.04219079999893438,0.04219079999893438,12.861385700001847,1,2,True,0,0,0.0,0.1234375,0.246875,"['l', 'l', 'l', 'l', 'l', 'l', 'l', 'l', 'l', 'l', 'l', 'l', 'a', 'l', 'l', 'a', 'l', 'l']","[3.877110300003551, 5.3411281000007875, 5.901231100004225, 6.364495000001625, 6.532449300000735, 6.692461200000253, 6.8617360000062035, 7.334169400004612, 7.557107900000119, 7.7806070000006, 8.004349300004833, 9.964598400001705, 10.364625500005786, 10.813604700000724, 11.076685600004566, 11.373431700005312, 12.676457000001392, 12.820621100006974]","[None, None, None, None, None, None, None, None, None, None, None, None, None, None, None, None, None, None]",12.868195000002743,12.876500799997302,12.876596220001375,13.878945500000555,13.85953470000095,,,,,,,287797,,2024-02-19_18h27.48.991,bart,2023.2.2,60.12133688126385,2024-02-19 18h28.00.256312 +0000,
1,0,1,0,13.878945500000555,,13.85990309999761,13.878945500000555,13.878945500000555,13.878945500000555,13.878945500000555,13.878945500000555,13.878945500000555,15.442684499997995,2,3,True,0,0,0.0,0.146875,0.29375,"['l', 'l']","[0.8203389999980573, 1.5635278999980073]","[None, None]",15.443851399999403,15.457695500001137,15.457789819996833,16.456812800002808,16.44075719999819,,,,,,,287797,,2024-02-19_18h27.48.991,bart,2023.2.2,60.12133688126385,2024-02-19 18h28.00.256312 +0000,
2,0,2,0,16.456812800002808,,16.44110190000356,16.456812800002808,16.456812800002808,16.456812800002808,16.456812800002808,16.456812800002808,16.456812800002808,26.367255600001954,11,8,False,0.4,8,0.4,0.2875,0.575,"['l', 'l', 'l', 'l', 'l', 'l', 'l', 'l', 'a']","[3.253935699998692, 3.5501874999972642, 3.7501887999969767, 4.0530272999967565, 4.381262800001423, 8.41319669999939, 8.725081199998385, 8.877900799998315, 9.908944499999052]","[None, None, None, None, None, None, None, None, None]",26.368604700001015,26.41544309999881,26.382153219998145,26.41544309999881,26.39669380000123,26.41544309999881,,,,,,287797,,2024-02-19_18h27.48.991,bart,2023.2.2,60.12133688126385,2024-02-19 18h28.00.256312 +0000,
3,0,3,0,26.41544309999881,,26.397140499997477,26.41544309999881,26.41544309999881,26.41544309999881,26.41544309999881,26.41544309999881,26.41544309999881,27.982324299999163,31,4,False,0.2,12,0.6,0.19375,0.3875,"['l', 'l', 'l', 'l', 'a']","[0.892654199997196, 1.0436616000006325, 1.2028390999985277, 1.3482568000035826, 1.571597300004214]","[None, None, None, None, None]",27.983833700003743,28.00464849999844,27.99748991999877,28.00464849999844,27.98630850000336,28.00464849999844,,,,,,287797,,2024-02-19_18h27.48.991,bart,2023.2.2,60.12133688126385,2024-02-19 18h28.00.256312 +0000,
4,0,4,0,28.00464849999844,,27.986796700002742,28.00464849999844,28.00464849999844,28.00464849999844,28.00464849999844,28.00464849999844,28.00464849999844,31.013534300000174,21,16,False,0.8,28,1.4,0.475,0.95,"['l', 'l', 'l', 'l', 'l', 'l', 'l', 'l', 'l', 'l', 'l', 'l', 'l', 'l', 'l', 'l', 'a']","[0.3491155000010622, 0.5010865000003832, 0.6613157000028878, 0.8296269000056782, 0.9985422000027029, 1.1816566000052262, 1.3428885000030277, 1.4940245000034338, 1.6537489000038477, 1.8132456000021193, 1.9821716000005836, 2.14226459999918, 2.31004020000546, 2.4772257000004174, 2.6536180000039167, 2.8131776000009268, 3.0141829999993206]","[None, None, None, None, None, None, None, None, None, None, None, None, None, None, None, None, None]",31.01516619999893,31.06893780000246,31.028752620000887,31.06893780000246,31.046799000003375,31.06893780000246,,,,,,287797,,2024-02-19_18h27.48.991,bart,2023.2.2,60.12133688126385,2024-02-19 18h28.00.256312 +0000,
5,0,5,0,31.06893780000246,,31.047435500004212,31.06893780000246,31.06893780000246,31.06893780000246,31.06893780000246,31.06893780000246,31.06893780000246,33.39452130000427,18,10,False,0.5,38,1.9,0.334375,0.66875,"['l', 'l', 'l', 'l', 'l', 'l', 'l', 'l', 'l', 'l', 'a']","[0.5511087999984738, 0.6878595000016503, 0.8469708999982686, 1.007108400001016, 1.182986300002085, 1.352872399998887, 1.6324592999953893, 1.7912361999988207, 1.9521839000008185, 2.1120892999970238, 2.319018700000015]","[None, None, None, None, None, None, None, None, None, None, None]",33.39717209999799,33.43970909999916,33.40959341999769,33.43970909999916,33.41677150000032,33.43970909999916,,,,,,287797,,2024-02-19_18h27.48.991,bart,2023.2.2,60.12133688126385,2024-02-19 18h28.00.256312 +0000,
6,0,6,0,33.43970909999916,,33.41756419999729,33.43970909999916,33.43970909999916,33.43970909999916,33.43970909999916,33.43970909999916,33.43970909999916,35.3268132000012,25,11,False,0.55,49,2.45,0.3578125,0.715625,"['l', 'l', 'l', 'l', 'l', 'l', 'l', 'l', 'l', 'l', 'l', 'a']","[0.09237629999552155, 0.24328719999903115, 0.39627459999610437, 0.5802780999947572, 0.724321499998041, 0.875295300000289, 1.0672550000017509, 1.2274261999991722, 1.3953717999975197, 1.5553870000003371, 1.7153650999971433, 1.8923895999978413]","[None, None, None, None, None, None, None, None, None, None, None, None]",35.32866169999761,35.375771899998654,35.34168172000136,35.375771899998654,35.35625170000276,35.375771899998654,,,,,,287797,,2024-02-19_18h27.48.991,bart,2023.2.2,60.12133688126385,2024-02-19 18h28.00.256312 +0000,
7,0,7,0,35.375771899998654,,35.356825499999104,35.375771899998654,35.375771899998654,35.375771899998654,35.375771899998654,35.375771899998654,35.375771899998654,37.908089600001404,28,15,False,0.75,64,3.2,0.4515625,0.903125,"['l', 'l', 'l', 'l', 'l', 'l', 'l', 'l', 'l', 'l', 'l', 'l', 'l', 'l', 'l', 'a']","[0.10647989999415586, 0.25052539999887813, 0.4184889999960433, 0.570508199998585, 0.7464867999951821, 0.9305069999973057, 1.106477299996186, 1.2663316999969538, 1.4270433999990928, 1.6023673999952734, 1.7640830999953323, 1.9391407999937655, 2.1070161999959964, 2.2663458999959403, 2.4110647999987123, 2.5391405999980634]","[None, None, None, None, None, None, None, None, None, None, None, None, None, None, None, None]",37.909408400002576,37.93562770000426,37.92291062000368,37.93562770000426,37.916489700000966,37.93562770000426,,,,,,287797,,2024-02-19_18h27.48.991,bart,2023.2.2,60.12133688126385,2024-02-19 18h28.00.256312 +0000,
8,0,8,0,37.93562770000426,,37.91701969999849,37.93562770000426,37.93562770000426,37.93562770000426,37.93562770000426,37.93562770000426,37.93562770000426,40.489043599998695,30,14,False,0.7,78,3.9,0.428125,0.85625,"['l', 'l', 'l', 'l', 'l', 'l', 'l', 'l', 'l', 'l', 'l', 'l', 'l', 'l', 'a']","[0.16275250000035157, 0.3075518000041484, 0.48301180000271415, 0.6349578000008478, 0.8107947000025888, 0.9708721000060905, 1.138784200004011, 1.2994663000063156, 1.466904800006887, 1.6351003000017954, 1.8112451000051806, 1.9795764000009513, 2.1715675000014016, 2.362748100000317, 2.5467771000039647]","[None, None, None, None, None, None, None, None, None, None, None, None, None, None, None]",40.491952700002,40.517286900001636,40.5039006199986,40.517286900001636,40.496151100000134,40.517286900001636,,,,,,287797,,2024-02-19_18h27.48.991,bart,2023.2.2,60.12133688126385,2024-02-19 18h28.00.256312 +0000,
9,0,9,0,40.517286900001636,,40.49651879999874,40.517286900001636,40.517286900001636,40.517286900001636,40.517286900001636,40.517286900001636,40.517286900001636,43.33676220000052,16,16,False,0.8,94,4.7,0.475,0.95,"['l', 'l', 'l', 'l', 'l', 'l', 'l', 'l', 'l', 'l', 'l', 'l', 'l', 'l', 'l', 'l', 'a']","[0.10892549999698531, 0.2688960000014049, 0.42193769999721553, 0.5888875999953598, 0.7489296999992803, 0.9170070999971358, 1.0862379999962286, 1.2692305999953533, 1.43722429999616, 1.6132326000006287, 1.7817728000009083, 1.942772900001728, 2.109867499995744, 2.285664099996211, 2.4537068999998155, 2.597449200002302, 2.8134442000009585]","[None, None, None, None, None, None, None, None, None, None, None, None, None, None, None, None, None]",43.33840739999869,43.36599399999977,43.35179001999859,43.36599399999977,43.346886899998935,43.36599399999977,,,,,,287797,,2024-02-19_18h27.48.991,bart,2023.2.2,60.12133688126385,2024-02-19 18h28.00.256312 +0000,
10,0,10,0,43.36599399999977,,43.34724090000236,43.36599399999977,43.36599399999977,43.36599399999977,43.36599399999977,43.36599399999977,43.36599399999977,46.70053570000164,32,16,False,0.8,110,5.5,0.475,0.95,"['l', 'l', 'l', 'l', 'l', 'l', 'l', 'l', 'l', 'l', 'l', 'l', 'l', 'l', 'l', 'l', 'a']","[0.18072850000316976, 0.340266100000008, 0.5082546999983606, 0.6773841000031098, 0.837200900001335, 1.0048362000015914, 1.1805273999998462, 1.3804010000021663, 1.555959299999813, 1.9009603000013158, 2.124830500004464, 2.3089495000022, 2.5082560000009835, 2.7085893000039505, 2.908563100005267, 3.0838712000040687, 3.3320721999989473]","[None, None, None, None, None, None, None, None, None, None, None, None, None, None, None, None, None]",46.70181360000424,46.73326210000232,46.71573721999812,46.73326210000232,46.7163115000003,46.73326210000232,,,,,,287797,,2024-02-19_18h27.48.991,bart,2023.2.2,60.12133688126385,2024-02-19 18h28.00.256312 +0000,
11,0,11,0,46.73326210000232,,46.71686190000037,46.73326210000232,46.73326210000232,46.73326210000232,46.73326210000232,46.73326210000232,46.73326210000232,49.11528140000155,12,13,True,0,110,5.5,0.38125,0.7625,"['l', 'l', 'l', 'l', 'l', 'l', 'l', 'l', 'l', 'l', 'l', 'l', 'l']","[0.4072315000012168, 0.55165250000573, 0.7109379000030458, 0.8781970999989426, 1.0462245000016992, 1.2222032999998191, 1.3912335999993957, 1.5271913000033237, 1.702226300003531, 1.8621970000021975, 2.0393960000001243, 2.2145171000011032, 2.3825341000047047]","[None, None, None, None, None, None, None, None, None, None, None, None, None]",49.11723940000229,49.129880100001174,49.13004321999688,50.12939819999883,50.11311279999791,,,,,,,287797,,2024-02-19_18h27.48.991,bart,2023.2.2,60.12133688126385,2024-02-19 18h28.00.256312 +0000,
12,0,12,0,50.12939819999883,,50.113450199998624,50.12939819999883,50.12939819999883,50.12939819999883,50.12939819999883,50.12939819999883,50.12939819999883,53.09471530000155,17,16,False,0.8,126,6.3,0.475,0.95,"['l', 'l', 'l', 'l', 'l', 'l', 'l', 'l', 'l', 'l', 'l', 'l', 'l', 'l', 'l', 'l', 'a']","[0.40920209999603685, 0.5621641999969142, 0.7376947000011569, 0.9137690999996266, 1.0817745000022114, 1.2500265999988187, 1.4180303999964963, 1.5860290999989957, 1.7458188000018708, 1.921845899996697, 2.074243299997761, 2.2506127000015113, 2.4180864000009024, 2.5613497000013012, 2.737790099999984, 2.9058665999982622, 2.9618009999976493]","[None, None, None, None, None, None, None, None, None, None, None, None, None, None, None, None, None]",53.09782809999888,53.14076159999968,53.11020392000137,53.14076159999968,53.11645159999898,53.14076159999968,,,,,,287797,,2024-02-19_18h27.48.991,bart,2023.2.2,60.12133688126385,2024-02-19 18h28.00.256312 +0000,
13,0,13,0,53.14076159999968,,53.117070100001,53.14076159999968,53.14076159999968,53.14076159999968,53.14076159999968,53.14076159999968,53.14076159999968,54.443948699998145,6,7,True,0,126,6.3,0.240625,0.48125,"['l', 'l', 'l', 'l', 'l', 'l', 'l']","[0.2806196000019554, 0.4404987000016263, 0.6165454000001773, 0.7845633000033558, 0.9605549999978393, 1.1285246999977971, 1.3045104999982868]","[None, None, None, None, None, None, None]",54.44655110000167,54.458762000002025,54.45885222000288,55.46549770000274,55.44190489999892,,,,,,,287797,,2024-02-19_18h27.48.991,bart,2023.2.2,60.12133688126385,2024-02-19 18h28.00.256312 +0000,
14,0,14,0,55.46549770000274,,55.4425534999973,55.46549770000274,55.46549770000274,55.46549770000274,55.46549770000274,55.46549770000274,55.46549770000274,58.241127499997674,27,17,False,0.85,143,7.15,0.4984375,0.996875,"['l', 'l', 'l', 'l', 'l', 'l', 'l', 'l', 'l', 'l', 'l', 'l', 'l', 'l', 'l', 'l', 'a']","[0.10851459999685176, 0.2844593999980134, 0.46049009999842383, 0.6285408999974607, 0.8124777999983053, 0.9885323999988032, 1.1645065999982762, 1.3245361000008415, 1.50048479999532, 1.6685687999997754, 1.8365349999949103, 1.9965239000011934, 2.156471499998588, 2.316481299996667, 2.4765345999985584, 2.6285245999970357, 2.7804921999995713]","[None, None, None, None, None, None, None, None, None, None, None, None, None, None, None, None, None]",58.242840899998555,58.29537359999813,58.25602751999759,58.29537359999813,58.266463300002215,58.29537359999813,,,,,,287797,,2024-02-19_18h27.48.991,bart,2023.2.2,60.12133688126385,2024-02-19 18h28.00.256312 +0000,
15,0,15,0,58.29537359999813,,58.26714840000204,58.29537359999813,58.29537359999813,58.29537359999813,58.29537359999813,58.29537359999813,58.29537359999813,59.90632200000255,8,9,True,0,143,7.15,0.2875,0.575,"['l', 'l', 'l', 'l', 'l', 'l', 'l', 'l', 'l']","[0.2789333000037004, 0.4233170000006794, 0.5991698000070755, 0.7591659000026993, 0.9351288000034401, 1.1031399000057718, 1.279004600000917, 1.4551204000017606, 1.6150098000071011]","[None, None, None, None, None, None, None, None, None]",59.909183499999926,59.92096209999727,59.921053419999225,60.9247378,60.904011500002525,,,,,,,287797,,2024-02-19_18h27.48.991,bart,2023.2.2,60.12133688126385,2024-02-19 18h28.00.256312 +0000,
16,0,16,0,60.9247378,,60.904415099998005,60.9247378,60.9247378,60.9247378,60.9247378,60.9247378,60.9247378,63.85317159999977,20,17,False,0.85,160,8.0,0.4984375,0.996875,"['l', 'l', 'l', 'l', 'l', 'l', 'l', 'l', 'l', 'l', 'l', 'l', 'l', 'l', 'l', 'l', 'a']","[0.17644989999826066, 0.4004999000026146, 0.5764523000034387, 0.7604965999998967, 0.9287432999990415, 1.1048315000007278, 1.2727031000031275, 1.4329819999984466, 1.60108030000265, 1.7769628000023658, 1.9533811000001151, 2.121402600001602, 2.3043163000038476, 2.4728606999997282, 2.6330663000044296, 2.793143200004124, 2.9373274000026868]","[None, None, None, None, None, None, None, None, None, None, None, None, None, None, None, None, None]",63.85450370000035,63.874185300002864,63.868300420002925,63.874185300002864,63.856000899999344,63.874185300002864,,,,,,287797,,2024-02-19_18h27.48.991,bart,2023.2.2,60.12133688126385,2024-02-19 18h28.00.256312 +0000,
17,0,17,0,63.874185300002864,,63.856328900001245,63.874185300002864,63.874185300002864,63.874185300002864,63.874185300002864,63.874185300002864,63.874185300002864,64.73540769999818,3,4,True,0,160,8.0,0.1703125,0.340625,"['l', 'l', 'l', 'l']","[0.35243479999917326, 0.5044352999975672, 0.6724652999982936, 0.8564084000026924]","[None, None, None, None]",64.73749849999876,64.75050590000319,64.75053621999905,65.74993530000211,65.73365680000279,,,,,,,287797,,2024-02-19_18h27.48.991,bart,2023.2.2,60.12133688126385,2024-02-19 18h28.00.256312 +0000,
18,0,18,0,65.74993530000211,,65.73412239999743,65.74993530000211,65.74993530000211,65.74993530000211,65.74993530000211,65.74993530000211,65.74993530000211,70.13152699999773,29,21,False,1.05,181,9.05,0.5921875,1.184375,"['l', 'l', 'l', 'l', 'l', 'l', 'l', 'l', 'l', 'l', 'l', 'l', 'l', 'l', 'l', 'l', 'l', 'l', 'l', 'l', 'a']","[0.14133969999966212, 0.3025240999995731, 0.4932954999967478, 0.6703689999994822, 0.845294599996123, 1.0226098999992246, 1.1973073999979533, 1.365340999996988, 1.5253220000013243, 1.701894199999515, 1.869851600000402, 2.038701099998434, 2.1898136000017985, 2.3740262999999686, 2.5651212000011583, 2.7332568999991054, 2.8860021000000415, 3.2380489999995916, 3.3983676999996533, 3.5733164999983273, 4.389390700001968]","[None, None, None, None, None, None, None, None, None, None, None, None, None, None, None, None, None, None, None, None, None]",70.13282839999738,70.16589540000132,70.14663271999962,70.16589540000132,70.14671829999861,70.16589540000132,,,,,,287797,,2024-02-19_18h27.48.991,bart,2023.2.2,60.12133688126385,2024-02-19 18h28.00.256312 +0000,
19,0,19,0,70.16589540000132,,70.14707620000263,70.16589540000132,70.16589540000132,70.16589540000132,70.16589540000132,70.16589540000132,70.16589540000132,73.04566150000028,9,8,False,0.4,189,9.45,0.2875,0.575,"['l', 'l', 'l', 'l', 'l', 'l', 'l', 'l', 'a']","[0.5484026000049198, 0.7016339000037988, 0.8767344000007142, 1.0445078000047943, 1.2129965999993146, 1.3889185000007274, 1.565184400002181, 1.748912000002747, 2.8858203000054345]","[None, None, None, None, None, None, None, None, None]",73.04771160000382,73.09594640000432,73.060493519999,73.09594640000432,73.07623469999817,73.09594640000432,,,,,,287797,,2024-02-19_18h27.48.991,bart,2023.2.2,60.12133688126385,2024-02-19 18h28.00.256312 +0000,
20,0,20,0,73.09594640000432,,73.07655589999922,73.09594640000432,73.09594640000432,73.09594640000432,73.09594640000432,73.09594640000432,73.09594640000432,74.47773800000141,13,7,False,0.35,196,9.8,0.2640625,0.528125,"['l', 'l', 'l', 'l', 'l', 'l', 'l', 'a']","[0.2520122999994783, 0.3959759999997914, 0.5640226000032271, 0.7319935999985319, 0.8999832999979844, 1.0846204999979818, 1.2117386000027182, 1.388320099998964]","[None, None, None, None, None, None, None, None]",74.47938209999847,74.5044446000029,74.49268331999701,74.5044446000029,74.48626910000166,74.5044446000029,,,,,,287797,,2024-02-19_18h27.48.991,bart,2023.2.2,60.12133688126385,2024-02-19 18h28.00.256312 +0000,
21,0,21,0,74.5044446000029,,74.4866258999973,74.5044446000029,74.5044446000029,74.5044446000029,74.5044446000029,74.5044446000029,74.5044446000029,75.35989030000201,5,3,False,0.15,199,9.95,0.1703125,0.340625,"['l', 'l', 'l', 'a']","[0.4024277999997139, 0.5473397999958252, 0.7302817999952822, 0.8576200999959838]","[None, None, None, None]",75.3611591000008,75.39464120000048,75.37501171999975,75.39464120000048,75.3763523000016,75.39464120000048,,,,,,287797,,2024-02-19_18h27.48.991,bart,2023.2.2,60.12133688126385,2024-02-19 18h28.00.256312 +0000,
22,0,22,0,75.39464120000048,,75.37669959999766,75.39464120000048,75.39464120000048,75.39464120000048,75.39464120000048,75.39464120000048,75.39464120000048,75.85979120000411,15,1,False,0.05,200,10.0,0.1234375,0.246875,"['l', 'a']","[0.33750890000374056, 0.47236490000068443]","[None, None]",75.86117080000258,75.88625039999897,75.87467231999835,75.88625039999897,75.86678000000393,75.88625039999897,,,,,,287797,,2024-02-19_18h27.48.991,bart,2023.2.2,60.12133688126385,2024-02-19 18h28.00.256312 +0000,
23,0,23,0,75.88625039999897,,75.86711459999788,75.88625039999897,75.88625039999897,75.88625039999897,75.88625039999897,75.88625039999897,75.88625039999897,76.25926060000347,24,1,False,0.05,201,10.05,0.1234375,0.246875,"['l', 'a']","[0.20466899999883026, 0.372619300003862]","[None, None]",76.2605773000032,76.2830871000042,76.27436451999893,76.2830871000042,76.26690370000142,76.2830871000042,,,,,,287797,,2024-02-19_18h27.48.991,bart,2023.2.2,60.12133688126385,2024-02-19 18h28.00.256312 +0000,
24,0,24,0,76.2830871000042,,76.26723830000265,76.2830871000042,76.2830871000042,76.2830871000042,76.2830871000042,76.2830871000042,76.2830871000042,76.55910150000273,22,1,False,0.05,202,10.1,0.1234375,0.246875,"['l', 'a']","[0.11295190000237199, 0.2799248000010266]","[None, None]",76.56044249999832,76.59265659999801,76.57406092000383,76.59265659999801,76.57609719999891,76.59265659999801,,,,,,287797,,2024-02-19_18h27.48.991,bart,2023.2.2,60.12133688126385,2024-02-19 18h28.00.256312 +0000,
25,0,25,0,76.59265659999801,,76.57643359999929,76.59265659999801,76.59265659999801,76.59265659999801,76.59265659999801,76.59265659999801,76.59265659999801,77.17530880000413,10,1,False,0.05,203,10.15,0.1234375,0.246875,"['l', 'a']","[0.09850909999659052, 0.586516199997277]","[None, None]",77.17692060000263,77.22541920000367,77.19046131999858,77.22541920000367,77.20663269999932,77.22541920000367,,,,,,287797,,2024-02-19_18h27.48.991,bart,2023.2.2,60.12133688126385,2024-02-19 18h28.00.256312 +0000,
26,0,26,0,77.22541920000367,,77.20696540000063,77.22541920000367,77.22541920000367,77.22541920000367,77.22541920000367,77.22541920000367,77.22541920000367,79.09021829999983,19,1,False,0.05,204,10.2,0.1234375,0.246875,"['a', 'a', 'a', 'a', 'a', 'a', 'a', 'a', 'l', 'a']","[0.1065939999971306, 0.281878499998129, 0.47564129999955185, 0.6977563999971608, 0.8755239000020083, 1.0744505999973626, 1.2657238999963738, 1.4416162999987137, 1.6266365999981645, 1.8575995999999577]","[None, None, None, None, None, None, None, None, None, None]",79.09143910000421,79.12211209999805,79.10524531999909,79.12211209999805,79.10610160000215,79.12211209999805,,,,,,287797,,2024-02-19_18h27.48.991,bart,2023.2.2,60.12133688126385,2024-02-19 18h28.00.256312 +0000,
27,0,27,0,79.12211209999805,,79.10644080000202,79.12211209999805,79.12211209999805,79.12211209999805,79.12211209999805,79.12211209999805,79.12211209999805,79.37333670000226,4,1,False,0.05,205,10.25,0.1234375,0.246875,"['l', 'a']","[0.08039370000187773, 0.25640800000110175]","[None, None]",79.37580880000314,79.41478140000254,79.38833202000023,79.41478140000254,79.3970799000017,79.41478140000254,,,,,,287797,,2024-02-19_18h27.48.991,bart,2023.2.2,60.12133688126385,2024-02-19 18h28.00.256312 +0000,
28,0,28,0,79.41478140000254,,79.39778659999865,79.41478140000254,79.41478140000254,79.41478140000254,79.41478140000254,79.41478140000254,79.41478140000254,79.63963430000149,7,1,False,0.05,206,10.3,0.1234375,0.246875,"['l', 'a']","[0.08391159999882802, 0.2279121999963536]","[None, None]",79.64083830000163,79.6747636,79.65483671999755,79.6747636,79.65638919999765,79.6747636,,,,,,287797,,2024-02-19_18h27.48.991,bart,2023.2.2,60.12133688126385,2024-02-19 18h28.00.256312 +0000,
29,0,29,0,79.6747636,,79.65674079999735,79.6747636,79.6747636,79.6747636,79.6747636,79.6747636,79.6747636,79.88976120000007,23,1,False,0.05,207,10.35,0.1234375,0.246875,"['l', 'a']","[0.07342520000383956, 0.21711180000420427]","[None, None]",79.89102419999836,79.91280220000044,79.90465031999702,79.91280220000044,79.89685389999795,79.91280220000044,,,,,,287797,,2024-02-19_18h27.48.991,bart,2023.2.2,60.12133688126385,2024-02-19 18h28.00.256312 +0000,
30,0,30,0,79.91280220000044,,79.89730419999978,79.91280220000044,79.91280220000044,79.91280220000044,79.91280220000044,79.91280220000044,79.91280220000044,80.1392268999989,14,1,False,0.05,208,10.4,0.1234375,0.246875,"['l', 'a']","[0.06637090000003809, 0.2177847999992082]","[None, None]",80.14195550000295,80.1760448999994,80.15439621999758,80.1760448999994,80.15620769999805,80.1760448999994,,,,,,287797,,2024-02-19_18h27.48.991,bart,2023.2.2,60.12133688126385,2024-02-19 18h28.00.256312 +0000,
31,0,31,0,80.1760448999994,,80.15653210000164,80.1760448999994,80.1760448999994,80.1760448999994,80.1760448999994,80.1760448999994,80.1760448999994,80.35592739999993,26,1,False,0.05,209,10.45,0.1234375,0.246875,"['l', 'a']","[0.019858699997712392, 0.17983030000323197]","[None, None]",80.35817610000231,80.37782680000237,80.3708647200001,80.37782680000237,80.36659900000086,80.37782680000237,,,,,,287797,,2024-02-19_18h27.48.991,bart,2023.2.2,60.12133688126385,2024-02-19 18h28.00.256312 +0000,
,,,,,,,,,,,,,,,,,,,,,,,,,,,,,,,80.36665070000163,80.37782680000237,80.37782680000237,85.36709929999779,None,287797,,2024-02-19_18h27.48.991,bart,2023.2.2,60.12133688126385,2024-02-19 18h28.00.256312 +0000,
