trials.thisRepN,trials.thisTrialN,trials.thisN,trials.thisIndex,thisRow.t,notes,choice.started,balloon.started,bank.started,pump.started,earning.started,earningpreviousBalloon.started,debugText.started,choice.stopped,nPumps_wouldPop,nPumps_done,popped,earnings_thisBalloon,bankedPumps,earnings,xSize,ySize,key_resp.keys,key_resp.rt,key_resp.duration,boomSlide.started,text.started,soundEffect.started,text.stopped,boomSlide.stopped,soundEffect.stopped,ending.started,feedbackFinal.started,key_resp_2.started,feedbackFinal.stopped,key_resp_2.stopped,ending.stopped,key_resp_2.keys,participant,session,date,expName,psychopyVersion,frameRate,expStart,
0,0,0,0,0.03854900000442285,,0.0039850000030128285,0.03854900000442285,0.03854900000442285,0.03854900000442285,0.03854900000442285,0.03854900000442285,0.03854900000442285,6.074917699996149,14,15,True,0,0,0.0,0.428125,0.85625,"['l', 'l', 'l', 'l', 'l', 'l', 'l', 'l', 'l', 'l', 'l', 'l', 'l', 'l', 'l']","[2.1482678999891505, 2.475737199987634, 2.7715193999902112, 3.0926279999985127, 3.3801054999930784, 3.6512457999924663, 3.915135499992175, 4.155451399987214, 4.403152099999716, 4.6513654999871505, 4.876140799999121, 5.115790600000764, 5.362643399988883, 5.682644099986646, 6.043654999986757]","[None, None, None, None, None, None, None, None, None, None, None, None, None, None, None]",6.076538900000742,6.08980220000376,6.0900635600017266,7.088897199995699,7.072825600000215,,,,,,,,,597956,,2024-02-15_22h33.41.161,bart,2023.2.2,60.065074500756346,2024-02-15 22h33.50.069436 +0000,
1,0,1,0,7.088897199995699,,7.0731832000019494,7.088897199995699,7.088897199995699,7.088897199995699,7.088897199995699,7.088897199995699,7.088897199995699,11.38731610000832,16,17,True,0,0,0.0,0.475,0.95,"['l', 'l', 'l', 'l', 'l', 'l', 'l', 'l', 'l', 'l', 'l', 'l', 'l', 'l', 'l', 'l', 'l']","[0.5840484000073047, 0.8396493000036571, 0.9919037000072422, 1.175835600006394, 1.5438976000004914, 1.7204132000042591, 1.8961274000030244, 2.0799893000075826, 2.255056300011347, 2.448028800004977, 2.6549755000014557, 2.8629719000018667, 3.072979300006409, 3.3121841000101995, 3.568017500001588, 3.8229710000014165, 4.2887671000062255]","[None, None, None, None, None, None, None, None, None, None, None, None, None, None, None, None, None]",11.388730999999098,11.40201540000271,11.402793860009115,12.401416799999424,12.385172299997066,,,,,,,,,597956,,2024-02-15_22h33.41.161,bart,2023.2.2,60.065074500756346,2024-02-15 22h33.50.069436 +0000,
2,0,2,0,12.401416799999424,,12.385516700000153,12.401416799999424,12.401416799999424,12.401416799999424,12.401416799999424,12.401416799999424,12.401416799999424,24.743045600000187,17,17,False,0.85,17,0.85,0.4984375,0.996875,"['l', 'l', 'l', 'l', 'l', 'l', 'l', 'l', 'l', 'l', 'l', 'l', 'l', 'l', 'l', 'l', 'l', 'a']","[0.4114518999995198, 0.9153082000120776, 1.1555575000093086, 1.3401940000039758, 1.6364281999995, 1.9953103000007104, 2.3802779000106966, 2.6602740000089398, 7.195075900002848, 7.498924500003341, 7.764209500004654, 8.027222700009588, 8.435148200005642, 8.780346900006407, 9.155606300002546, 9.580160600002273, 11.803872000004048, 12.346920200012391]","[None, None, None, None, None, None, None, None, None, None, None, None, None, None, None, None, None, None]",24.744251399999484,24.772668600009638,24.758032760005154,24.772668600009638,24.74995630000194,24.772668600009638,,,,,,,,597956,,2024-02-15_22h33.41.161,bart,2023.2.2,60.065074500756346,2024-02-15 22h33.50.069436 +0000,
3,0,3,0,24.772668600009638,,24.750347399996826,24.772668600009638,24.772668600009638,24.772668600009638,24.772668600009638,24.772668600009638,24.772668600009638,27.740312699999777,6,7,True,0,17,0.85,0.240625,0.48125,"['l', 'l', 'l', 'l', 'l', 'l', 'l']","[1.3567354999977397, 1.613433200007421, 1.829213200006052, 2.0462154999986524, 2.2772049000050174, 2.566211600002134, 2.9744918000069447]","[None, None, None, None, None, None, None]",27.741586999996798,27.755237600009423,27.755349460004073,28.754679100005887,28.738552800001344,,,,,,,,,597956,,2024-02-15_22h33.41.161,bart,2023.2.2,60.065074500756346,2024-02-15 22h33.50.069436 +0000,
4,0,4,0,28.754679100005887,,28.73900090000825,28.754679100005887,28.754679100005887,28.754679100005887,28.754679100005887,28.754679100005887,28.754679100005887,47.47429349999584,28,28,False,1.4,45,2.25,0.75625,1.5125,"['l', 'l', 'l', 'l', 'l', 'l', 'l', 'l', 'l', 'l', 'l', 'l', 'l', 'l', 'l', 'l', 'l', 'l', 'l', 'l', 'l', 'l', 'l', 'l', 'l', 'l', 'l', 'l', 'a']","[5.063758099990082, 5.286681800003862, 5.495568500002264, 5.686361699990812, 5.863384900003439, 6.047361599994474, 6.214432599997963, 6.383376199999475, 6.567381699991529, 6.743366299997433, 6.967349500002456, 7.686991599999601, 7.9344098000001395, 8.127255300001707, 8.287257100004354, 8.454239999991842, 8.631456999995862, 9.10254979999445, 9.335904299994581, 9.622211199995945, 9.983314500001143, 10.368300699992687, 10.606363200000487, 10.814341499994043, 11.415093899995554, 11.85494409999228, 15.32740389999526, 15.808271999994759, 18.711840199990547]","[None, None, None, None, None, None, None, None, None, None, None, None, None, None, None, None, None, None, None, None, None, None, None, None, None, None, None, None, None]",47.47551089999615,47.49978340000962,47.48975425999815,47.49978340000962,47.48034350000671,47.49978340000962,,,,,,,,597956,,2024-02-15_22h33.41.161,bart,2023.2.2,60.065074500756346,2024-02-15 22h33.50.069436 +0000,
5,0,5,0,47.49978340000962,,47.480683300003875,47.49978340000962,47.49978340000962,47.49978340000962,47.49978340000962,47.49978340000962,47.49978340000962,49.52238870000292,7,8,True,0,45,2.25,0.2640625,0.528125,"['l', 'l', 'l', 'l', 'l', 'l', 'l', 'l']","[0.9332622999936575, 1.1019036999932723, 1.2695598999998765, 1.3980825999897206, 1.5494087999977637, 1.7014387999952305, 1.861430199991446, 2.028796099999454]","[None, None, None, None, None, None, None, None]",49.523652700008824,49.53754309999931,49.53742255999968,50.53714030000265,50.520780400009244,,,,,,,,,597956,,2024-02-15_22h33.41.161,bart,2023.2.2,60.065074500756346,2024-02-15 22h33.50.069436 +0000,
6,0,6,0,50.53714030000265,,50.521430699998746,50.53714030000265,50.53714030000265,50.53714030000265,50.53714030000265,50.53714030000265,50.53714030000265,55.367694100001245,23,24,True,0,45,2.25,0.6390625,1.278125,"['l', 'l', 'l', 'l', 'l', 'l', 'l', 'l', 'l', 'l', 'l', 'l', 'l', 'l', 'l', 'l', 'l', 'l', 'l', 'l', 'l', 'l', 'l']","[0.6733001000102377, 0.840149100011331, 1.0091365999978734, 1.1761934000096517, 1.3284848000039347, 1.480547099999967, 1.6398888000112493, 1.80076790000021, 1.9608462000032887, 2.127818200009642, 2.3050254999980098, 2.456333900001482, 2.6481817000021692, 2.832269600010477, 3.0011960999981966, 3.176560400010203, 3.3614861000096425, 3.561890400000266, 3.7440443000086816, 3.943811300006928, 4.185306600003969, 4.505236400000285, 4.823912799998652]","[None, None, None, None, None, None, None, None, None, None, None, None, None, None, None, None, None, None, None, None, None, None, None]",55.369495300008566,55.38260199999786,55.383174859995776,56.38189580000471,56.36571260000346,,,,,,,,,597956,,2024-02-15_22h33.41.161,bart,2023.2.2,60.065074500756346,2024-02-15 22h33.50.069436 +0000,
7,0,7,0,56.38189580000471,,56.36605490000511,56.38189580000471,56.38189580000471,56.38189580000471,56.38189580000471,56.38189580000471,56.38189580000471,57.99859840000863,8,9,True,0,45,2.25,0.2875,0.575,"['l', 'l', 'l', 'l', 'l', 'l', 'l', 'l']","[0.44680210000660736, 0.6386321000027237, 0.7834165000094799, 0.95164100000693, 1.1194060999987414, 1.2962722000083886, 1.4554927999997744, 1.6232718999963254]","[None, None, None, None, None, None, None, None]",58.0002436000068,58.01398540000082,58.01380856000905,59.02990690000297,59.01336569999694,,,,,,,,,597956,,2024-02-15_22h33.41.161,bart,2023.2.2,60.065074500756346,2024-02-15 22h33.50.069436 +0000,
8,0,8,0,59.02990690000297,,59.013724000004004,59.02990690000297,59.02990690000297,59.02990690000297,59.02990690000297,59.02990690000297,59.02990690000297,91.97189040000376,32,33,True,0,45,2.25,0.85,1.7,"['l', 'l', 'l', 'l', 'l', 'l', 'l', 'l', 'l', 'l', 'l', 'l', 'l', 'l', 'l', 'l', 'l', 'l', 'l', 'l', 'l', 'l', 'l', 'l', 'l', 'l', 'l', 'l', 'l', 'l', 'l', 'l', 'l']","[0.4469323999946937, 0.9918175999919185, 1.1675760999933118, 1.3363741999928607, 1.5123077999887755, 1.6954406999866478, 1.8632870999863371, 2.039549699999043, 2.1922832999989623, 2.375465399993118, 2.5526512999931583, 2.7274964999960503, 2.895469299997785, 3.0634320999961346, 3.2474360999913188, 3.4227755999891087, 3.5922713999898406, 3.7751306999998633, 3.9437835999997333, 4.118843899996136, 4.3107489999965765, 4.486791599993012, 4.687097999994876, 4.879077299992787, 5.0790909999923315, 5.295109799990314, 5.495227599996724, 5.703532199986512, 5.918913799992879, 6.166795999990427, 6.422865199987427, 6.711846599995624, 32.94267669999681]","[None, None, None, None, None, None, None, None, None, None, None, None, None, None, None, None, None, None, None, None, None, None, None, None, None, None, None, None, None, None, None, None, None]",91.97311679999984,91.985897999999,91.98705785999918,92.98514160000195,92.96908290000283,,,,,,,,,597956,,2024-02-15_22h33.41.161,bart,2023.2.2,60.065074500756346,2024-02-15 22h33.50.069436 +0000,
9,0,9,0,92.98514160000195,,92.96962859999621,92.98514160000195,92.98514160000195,92.98514160000195,92.98514160000195,92.98514160000195,92.98514160000195,99.54885780000768,27,28,True,0,45,2.25,0.7328125,1.465625,"['l', 'l', 'l', 'l', 'l', 'l', 'l', 'l', 'l', 'l', 'l', 'l', 'l', 'l', 'l', 'l', 'l', 'l', 'l', 'l', 'l', 'l', 'l', 'l', 'l', 'l', 'l', 'l']","[1.0667785000114236, 2.2198418000043603, 2.3872783000115305, 2.5630755000020145, 2.723527300011483, 2.8750587000104133, 2.987285300012445, 3.1554479000042193, 3.322609700000612, 3.4915584000118542, 3.6433608000079403, 3.8104687000013655, 3.9866095000033965, 4.138616300013382, 4.3145474000048125, 4.491392700001597, 4.658890800012159, 4.836181700011366, 5.01945930000511, 5.179229800007306, 5.347503500001039, 5.523440100005246, 5.698689600001671, 5.8756706999993185, 6.035686400005943, 6.219689600009588, 6.3956025000079535, 6.5706640999997035]","[None, None, None, None, None, None, None, None, None, None, None, None, None, None, None, None, None, None, None, None, None, None, None, None, None, None, None, None]",99.55002570000943,99.5630525000015,99.56387036000233,100.56228959999862,100.54614380000567,,,,,,,,,597956,,2024-02-15_22h33.41.161,bart,2023.2.2,60.065074500756346,2024-02-15 22h33.50.069436 +0000,
10,0,10,0,100.56228959999862,,100.54648469999665,100.56228959999862,100.56228959999862,100.56228959999862,100.56228959999862,100.56228959999862,100.56228959999862,101.27951310000208,1,2,True,0,45,2.25,0.1234375,0.246875,"['l', 'l']","[0.5454365000041435, 0.713680699991528]","[None, None]",101.28069640000467,101.29513530000986,101.29496355999872,102.31108189999941,102.2944748000009,,,,,,,,,597956,,2024-02-15_22h33.41.161,bart,2023.2.2,60.065074500756346,2024-02-15 22h33.50.069436 +0000,
11,0,11,0,102.31108189999941,,102.29482629999984,102.31108189999941,102.31108189999941,102.31108189999941,102.31108189999941,102.31108189999941,102.31108189999941,110.10683319999953,26,27,True,0,45,2.25,0.709375,1.41875,"['l', 'l', 'l', 'l', 'l', 'l', 'l', 'l', 'l', 'l', 'l', 'l', 'l', 'l', 'l', 'l', 'l', 'l', 'l', 'l', 'l', 'l', 'l', 'l', 'l', 'l', 'l']","[2.470957899990026, 2.7820610999915516, 2.9510843999887584, 3.1185562999889953, 3.294251200000872, 3.4715089999954216, 3.6307978999975603, 3.80754349999188, 3.982774399992195, 4.166743199995835, 4.343488599988632, 4.5177408999879844, 4.6945401999983005, 4.886521199994604, 5.054498899989994, 5.223467299991171, 5.407501599998795, 5.581868799999938, 5.766860999996425, 5.941713699998218, 6.133881999994628, 6.48605019999377, 6.678019599989057, 6.855040800001007, 7.183250499991118, 7.39925439999206, 7.807078599988017]","[None, None, None, None, None, None, None, None, None, None, None, None, None, None, None, None, None, None, None, None, None, None, None, None, None, None, None]",110.10799790000601,110.12092760000087,110.12165786000405,111.12019620000501,111.10413049999624,,,,,,,,,597956,,2024-02-15_22h33.41.161,bart,2023.2.2,60.065074500756346,2024-02-15 22h33.50.069436 +0000,
12,0,12,0,111.12019620000501,,111.10452039999655,111.12019620000501,111.12019620000501,111.12019620000501,111.12019620000501,111.12019620000501,111.12019620000501,113.28667810000479,24,1,False,0.05,46,2.3,0.1234375,0.246875,"['l', 'a']","[2.02086090001103, 2.1730078000109643]","[None, None]",113.28784669999732,113.33316950000881,113.30178096000309,113.33316950000881,113.30999380000867,113.33316950000881,,,,,,,,597956,,2024-02-15_22h33.41.161,bart,2023.2.2,60.065074500756346,2024-02-15 22h33.50.069436 +0000,
13,0,13,0,113.33316950000881,,113.31058550000307,113.33316950000881,113.33316950000881,113.33316950000881,113.33316950000881,113.33316950000881,113.33316950000881,113.9695711999957,22,1,False,0.05,47,2.35,0.1234375,0.246875,"['l', 'a']","[0.4679156999918632, 0.6369061000004876]","[None, None]",113.9710527999996,114.00544960000843,113.98449596000573,114.00544960000843,113.98976510000648,114.00544960000843,,,,,,,,597956,,2024-02-15_22h33.41.161,bart,2023.2.2,60.065074500756346,2024-02-15 22h33.50.069436 +0000,
14,0,14,0,114.00544960000843,,113.99011090000567,114.00544960000843,114.00544960000843,114.00544960000843,114.00544960000843,114.00544960000843,114.00544960000843,114.38549980000244,13,1,False,0.05,48,2.4,0.1234375,0.246875,"['l', 'a']","[0.1797958999959519, 0.37207509999279864]","[None, None]",114.38670420000562,114.41515739999886,114.40082616,114.41515739999886,114.39998329999798,114.41515739999886,,,,,,,,597956,,2024-02-15_22h33.41.161,bart,2023.2.2,60.065074500756346,2024-02-15 22h33.50.069436 +0000,
15,0,15,0,114.41515739999886,,114.40033479999693,114.41515739999886,114.41515739999886,114.41515739999886,114.41515739999886,114.41515739999886,114.41515739999886,114.80158040000242,19,1,False,0.05,49,2.45,0.1234375,0.246875,"['l', 'a']","[0.1695115999900736, 0.37791539999307133]","[None, None]",114.80277360000764,114.83598420000635,114.81710606000415,114.83598420000635,114.81972580000001,114.83598420000635,,,,,,,,597956,,2024-02-15_22h33.41.161,bart,2023.2.2,60.065074500756346,2024-02-15 22h33.50.069436 +0000,
16,0,16,0,114.83598420000635,,114.8200557000091,114.83598420000635,114.83598420000635,114.83598420000635,114.83598420000635,114.83598420000635,114.83598420000635,115.25176240000292,5,1,False,0.05,50,2.5,0.1234375,0.246875,"['l', 'a']","[0.18222370000148658, 0.42136540000501554]","[None, None]",115.25411080000049,115.28956730000209,115.2665941600033,115.28956730000209,115.26962950000598,115.28956730000209,,,,,,,,597956,,2024-02-15_22h33.41.161,bart,2023.2.2,60.065074500756346,2024-02-15 22h33.50.069436 +0000,
17,0,17,0,115.28956730000209,,115.27017859999614,115.28956730000209,115.28956730000209,115.28956730000209,115.28956730000209,115.28956730000209,115.28956730000209,115.90108470000268,3,1,False,0.05,51,2.55,0.1234375,0.246875,"['l', 'a']","[0.2888074000074994, 0.616557000001194]","[None, None]",115.9022743999958,115.93606790000922,115.9162612600092,115.93606790000922,115.92027950000193,115.93606790000922,,,,,,,,597956,,2024-02-15_22h33.41.161,bart,2023.2.2,60.065074500756346,2024-02-15 22h33.50.069436 +0000,
18,0,18,0,115.93606790000922,,115.92062550000264,115.93606790000922,115.93606790000922,115.93606790000922,115.93606790000922,115.93606790000922,115.93606790000922,116.5670017000084,15,1,False,0.05,52,2.6,0.1234375,0.246875,"['l', 'a']","[0.33682739999494515, 0.6254417999880388]","[None, None]",116.56821789999958,116.61521080000966,116.58247266000107,116.61521080000966,116.60018370000762,116.61521080000966,,,,,,,,597956,,2024-02-15_22h33.41.161,bart,2023.2.2,60.065074500756346,2024-02-15 22h33.50.069436 +0000,
19,0,19,0,116.61521080000966,,116.60053550000885,116.61521080000966,116.61521080000966,116.61521080000966,116.61521080000966,116.61521080000966,116.61521080000966,117.24982369999634,2,1,False,0.05,53,2.65,0.1234375,0.246875,"['l', 'a']","[0.32227200000488665, 0.626277300005313]","[None, None]",117.25094209999952,117.29506089999632,117.26514196000498,117.29506089999632,117.27959940000437,117.29506089999632,,,,,,,,597956,,2024-02-15_22h33.41.161,bart,2023.2.2,60.065074500756346,2024-02-15 22h33.50.069436 +0000,
20,0,20,0,117.29506089999632,,117.27995799999917,117.29506089999632,117.29506089999632,117.29506089999632,117.29506089999632,117.29506089999632,117.29506089999632,117.81597229999898,21,1,False,0.05,54,2.7,0.1234375,0.246875,"['l', 'a']","[0.28264889999991283, 0.5137126999907196]","[None, None]",117.81715299999632,117.84467489999952,117.83144836000137,117.84467489999952,117.83022089999577,117.84467489999952,,,,,,,,597956,,2024-02-15_22h33.41.161,bart,2023.2.2,60.065074500756346,2024-02-15 22h33.50.069436 +0000,
21,0,21,0,117.84467489999952,,117.830575400003,117.84467489999952,117.84467489999952,117.84467489999952,117.84467489999952,117.84467489999952,117.84467489999952,118.39937470000586,18,1,False,0.05,55,2.75,0.1234375,0.246875,"['l', 'a']","[0.2996642000071006, 0.5566128000064055]","[None, None]",118.40082609999808,118.44524790000287,118.41426176000532,118.44524790000287,118.42987079999875,118.44524790000287,,,,,,,,597956,,2024-02-15_22h33.41.161,bart,2023.2.2,60.065074500756346,2024-02-15 22h33.50.069436 +0000,
22,0,22,0,118.44524790000287,,118.43021059999592,118.44524790000287,118.44524790000287,118.44524790000287,118.44524790000287,118.44524790000287,118.44524790000287,119.03207800000382,10,2,False,0.1,57,2.85,0.146875,0.29375,"['l', 'l', 'a']","[0.259099500006414, 0.419137300006696, 0.5874883000069531]","[None, None, None]",119.0333008000016,119.06806360000337,119.04722846000077,119.06806360000337,119.04970669999602,119.06806360000337,,,,,,,,597956,,2024-02-15_22h33.41.161,bart,2023.2.2,60.065074500756346,2024-02-15 22h33.50.069436 +0000,
23,0,23,0,119.06806360000337,,119.05004519999784,119.06806360000337,119.06806360000337,119.06806360000337,119.06806360000337,119.06806360000337,119.06806360000337,119.66459020000184,11,2,False,0.1,59,2.95,0.146875,0.29375,"['l', 'l', 'a']","[0.25349719999940135, 0.4053434999950696, 0.5888665999955265]","[None, None, None]",119.6658102000074,119.69434750000073,119.68000825999916,119.69434750000073,119.67956970000523,119.69434750000073,,,,,,,,597956,,2024-02-15_22h33.41.161,bart,2023.2.2,60.065074500756346,2024-02-15 22h33.50.069436 +0000,
24,0,24,0,119.69434750000073,,119.6799108999985,119.69434750000073,119.69434750000073,119.69434750000073,119.69434750000073,119.69434750000073,119.69434750000073,120.66400180000346,31,4,False,0.2,63,3.15,0.19375,0.3875,"['l', 'l', 'l', 'l', 'a']","[0.2259565999993356, 0.40300700000079814, 0.5940510999935213, 0.7622027000033995, 0.9709616000036476]","[None, None, None, None, None]",120.66561500000535,120.68910190000315,120.67911506000819,120.68910190000315,120.66990670000087,120.68910190000315,,,,,,,,597956,,2024-02-15_22h33.41.161,bart,2023.2.2,60.065074500756346,2024-02-15 22h33.50.069436 +0000,
25,0,25,0,120.68910190000315,,120.67025189999549,120.68910190000315,120.68910190000315,120.68910190000315,120.68910190000315,120.68910190000315,120.68910190000315,121.56302490000962,30,4,False,0.2,67,3.35,0.19375,0.3875,"['l', 'l', 'l', 'l', 'a']","[0.18373040000733454, 0.37695950000488665, 0.5517182000039611, 0.7197020000021439, 0.8729198000073666]","[None, None, None, None, None]",121.56426280000596,121.60628100000031,121.57820505999989,121.60628100000031,121.59032660000958,121.60628100000031,,,,,,,,597956,,2024-02-15_22h33.41.161,bart,2023.2.2,60.065074500756346,2024-02-15 22h33.50.069436 +0000,
26,0,26,0,121.60628100000031,,121.59066290000919,121.60628100000031,121.60628100000031,121.60628100000031,121.60628100000031,121.60628100000031,121.60628100000031,122.67919070000062,29,5,False,0.25,72,3.6,0.2171875,0.434375,"['l', 'l', 'l', 'l', 'l', 'a']","[0.20234679999703076, 0.38639189999958035, 0.56231839999964, 0.7313642999943113, 0.891349600002286, 1.0741019999986747]","[None, None, None, None, None, None]",122.68032040000253,122.7085328999965,122.69426936000382,122.7085328999965,122.68997720000334,122.7085328999965,,,,,,,,597956,,2024-02-15_22h33.41.161,bart,2023.2.2,60.065074500756346,2024-02-15 22h33.50.069436 +0000,
27,0,27,0,122.7085328999965,,122.69031380000524,122.7085328999965,122.7085328999965,122.7085328999965,122.7085328999965,122.7085328999965,122.7085328999965,123.8449430000037,12,5,False,0.25,77,3.85,0.2171875,0.434375,"['l', 'l', 'l', 'l', 'l', 'a']","[0.24559099999896716, 0.4288436000060756, 0.5958728999976302, 0.7798805000056745, 0.9331281000049785, 1.132102899995516]","[None, None, None, None, None, None]",123.84616929999902,123.87510960000509,123.86000246000621,123.87510960000509,123.86012640000263,123.87510960000509,,,,,,,,597956,,2024-02-15_22h33.41.161,bart,2023.2.2,60.065074500756346,2024-02-15 22h33.50.069436 +0000,
28,0,28,0,123.87510960000509,,123.86046399999759,123.87510960000509,123.87510960000509,123.87510960000509,123.87510960000509,123.87510960000509,123.87510960000509,124.79387970000971,4,5,True,0,77,3.85,0.19375,0.3875,"['l', 'l', 'l', 'l', 'l']","[0.2287471000017831, 0.4059162000048673, 0.580838699999731, 0.7569402000081027, 0.9252269999997225]","[None, None, None, None, None]",124.79543230000127,124.8088798999961,124.80892096000461,125.80824379999831,125.79197299999942,,,,,,,,,597956,,2024-02-15_22h33.41.161,bart,2023.2.2,60.065074500756346,2024-02-15 22h33.50.069436 +0000,
29,0,29,0,125.80824379999831,,125.79233530000784,125.80824379999831,125.80824379999831,125.80824379999831,125.80824379999831,125.80824379999831,125.80824379999831,127.9250677000091,9,10,True,0,77,3.85,0.3109375,0.621875,"['l', 'l', 'l', 'l', 'l', 'l', 'l', 'l', 'l', 'l']","[0.6172665000049165, 0.7932494999986375, 0.970309600001201, 1.090299400006188, 1.2653494999976829, 1.4344752000033623, 1.593265400006203, 1.7702977000008104, 1.9452957000030437, 2.1230049000005238]","[None, None, None, None, None, None, None, None, None, None]",127.92618570000923,127.93967930000508,127.93992116000008,128.93876910000108,128.92284670000663,,,,,,,,,597956,,2024-02-15_22h33.41.161,bart,2023.2.2,60.065074500756346,2024-02-15 22h33.50.069436 +0000,
30,0,30,0,128.93876910000108,,128.9232023000077,128.93876910000108,128.93876910000108,128.93876910000108,128.93876910000108,128.93876910000108,128.93876910000108,130.5225325000065,25,8,False,0.4,85,4.25,0.2875,0.575,"['l', 'l', 'l', 'l', 'l', 'l', 'l', 'l', 'a']","[0.2421916000021156, 0.4103671999910148, 0.5692223999940325, 0.745655299993814, 0.9226122999971267, 1.0979902999970363, 1.282966500002658, 1.4579492999910144, 1.586474099996849]","[None, None, None, None, None, None, None, None, None]",130.5237363000051,130.5690661999979,130.53774976000278,130.5690661999979,130.55029820000345,130.5690661999979,,,,,,,,597956,,2024-02-15_22h33.41.161,bart,2023.2.2,60.065074500756346,2024-02-15 22h33.50.069436 +0000,
31,0,31,0,130.5690661999979,,130.550636400003,130.5690661999979,130.5690661999979,130.5690661999979,130.5690661999979,130.5690661999979,130.5690661999979,132.25452830000722,20,7,False,0.35,92,4.6,0.2640625,0.528125,"['l', 'l', 'l', 'l', 'l', 'l', 'l', 'a']","[0.49583919999713544, 0.6798241000069538, 0.8558810999966227, 1.0490643000084674, 1.2320589000009932, 1.3920175999955973, 1.5438295000058133, 1.6888613000046462]","[None, None, None, None, None, None, None, None]",132.25608540000394,132.2790943,132.26976965999785,132.2790943,132.26977790000092,132.2790943,,,,,,,,597956,,2024-02-15_22h33.41.161,bart,2023.2.2,60.065074500756346,2024-02-15 22h33.50.069436 +0000,
,,,,,,,,,,,,,,,,,,,,,,,,,,,,,,,132.26982660000795,132.2790943,132.2790943,137.2820495000051,137.2820495000051,137.26570849999553,None,597956,,2024-02-15_22h33.41.161,bart,2023.2.2,60.065074500756346,2024-02-15 22h33.50.069436 +0000,
